Date,StartTime,Subject,trialnumber,Cond,TrialError,correct,RT,WaitStart,StimDur,DimmTime,RelTime,RTcalc,WaitRew,numRew
2014_06_23,10:04:18,Ingrid,1,2,0,1,965,1076,3283,1124,2096,972,111,1
2014_06_23,10:04:23,Ingrid,2,4,5,0,NaN,826,3099,NaN,2257,NaN,NaN,0
2014_06_23,10:04:30,Ingrid,3,4,5,0,NaN,866,2450,NaN,1569,NaN,NaN,0
2014_06_23,10:04:35,Ingrid,4,3,0,1,146,815,2566,1484,1637,153,115,1
2014_06_23,10:04:39,Ingrid,5,2,0,1,384,125,1849,1224,1614,390,111,2
2014_06_23,10:04:43,Ingrid,6,4,5,0,NaN,1050,2283,NaN,1222,NaN,NaN,0
2014_06_23,10:04:57,Ingrid,9,1,0,1,843,701,2432,765,1613,848,119,0
2014_07_23,10:04:16,Ingrid,14,5,0,1,745,635,2733,1231,1982,751,117,0
2014_07_23,10:04:31,Ingrid,17,1,0,1,881,624,2199,575,1462,887,114,1
2014_07_23,10:04:35,Ingrid,18,3,0,1,685,240,2032,993,1684,691,109,0
2014_07_23,10:04:55,Ingrid,25,5,0,1,815,708,2666,1025,1846,821,113,0
2014_07_23,10:04:59,Ingrid,26,1,0,1,765,343,1749,523,1295,772,112,0
2014_08_23,10:04:04,Ingrid,27,5,5,0,NaN,637,1666,NaN,1017,NaN,NaN,0
2014_08_23,10:04:08,Ingrid,28,4,0,1,270,698,1983,901,1177,276,108,1
2014_08_23,10:04:21,Ingrid,31,4,0,1,589,320,1833,813,1408,595,106,0
2014_08_23,10:04:39,Ingrid,36,3,0,1,689,609,2099,691,1385,694,106,0
2014_08_23,10:04:43,Ingrid,37,4,0,1,316,379,1599,787,1108,321,113,1
2014_08_23,10:04:46,Ingrid,38,5,0,1,172,322,1466,861,1038,177,107,2
2014_08_23,10:04:54,Ingrid,40,4,0,1,335,412,1633,771,1111,340,111,0
2014_08_23,10:04:57,Ingrid,41,4,0,1,236,492,1616,775,1016,241,109,0
2014_09_23,10:04:42,Ingrid,52,5,0,1,981,659,2533,774,1761,987,113,0
2014_09_23,10:04:46,Ingrid,53,4,5,0,NaN,884,1567,NaN,671,NaN,NaN,0
2014_10_23,10:04:00,Ingrid,56,3,0,1,632,452,1833,631,1269,638,113,0
2014_10_23,10:04:03,Ingrid,57,5,0,1,564,335,1766,748,1318,570,114,0
2014_10_23,10:04:08,Ingrid,58,4,0,1,177,404,1400,696,878,182,118,1
2014_10_23,10:04:21,Ingrid,61,5,0,1,447,503,1816,747,1199,452,115,2
2014_10_23,10:04:24,Ingrid,62,4,0,1,442,332,1582,684,1131,447,120,0
2014_10_23,10:04:28,Ingrid,63,1,0,1,653,35,1366,565,1223,658,109,1
2014_10_23,10:04:31,Ingrid,64,4,0,1,111,474,1399,692,809,117,117,0
2014_10_23,10:04:52,Ingrid,69,4,0,1,707,545,2049,671,1384,713,121,0
2014_10_23,10:04:56,Ingrid,70,4,0,1,503,381,1666,668,1177,509,108,1
2014_10_23,10:04:59,Ingrid,71,5,0,1,235,254,1333,729,970,241,110,0
2014_11_23,10:04:03,Ingrid,72,4,0,1,329,435,1566,681,1016,335,116,0
2014_11_23,10:04:17,Ingrid,75,4,0,1,565,541,1900,676,1246,570,114,0
2014_11_23,10:04:21,Ingrid,76,4,0,1,898,336,2016,664,1568,904,113,0
2014_11_23,10:04:26,Ingrid,77,4,5,0,NaN,493,1149,NaN,648,NaN,NaN,1
2014_11_23,10:04:31,Ingrid,78,5,0,1,589,495,1916,721,1315,594,107,1
2014_11_23,10:04:44,Ingrid,81,4,0,1,926,456,2165,660,1591,931,119,0
2014_11_23,10:04:49,Ingrid,82,2,0,1,794,105,1583,562,1361,799,118,0
2014_11_23,10:04:53,Ingrid,83,4,0,1,586,594,1949,655,1246,591,110,0
2014_11_23,10:04:57,Ingrid,84,2,0,1,420,448,1549,568,993,425,109,2
2014_12_23,10:04:01,Ingrid,85,5,0,1,189,60,1067,707,901,194,106,0
2014_12_23,10:04:05,Ingrid,86,1,0,1,359,403,1400,514,879,365,119,0
2014_12_23,10:04:19,Ingrid,89,4,0,1,1042,541,2366,659,1706,1047,120,0
2014_12_23,10:04:23,Ingrid,90,4,0,1,280,455,1516,662,947,285,115,0
2014_12_23,10:04:26,Ingrid,91,4,0,1,246,450,1466,649,901,252,115,0
2014_12_23,10:04:31,Ingrid,92,2,0,1,867,701,2799,1115,1987,872,112,0
2014_12_23,10:04:37,Ingrid,93,1,5,0,NaN,449,1216,NaN,763,NaN,NaN,0
2014_12_23,10:04:41,Ingrid,94,1,0,1,364,518,1716,715,1085,370,114,0
2014_12_23,10:04:44,Ingrid,95,4,5,0,NaN,569,1466,NaN,880,NaN,NaN,0
2014_12_23,10:04:57,Ingrid,98,3,5,0,NaN,1241,2016,NaN,763,NaN,NaN,0
2014_13_23,10:04:07,Ingrid,100,4,0,1,587,762,2665,1204,1797,593,107,0
2014_13_23,10:04:12,Ingrid,101,1,0,1,554,657,1949,626,1185,559,108,0
2014_13_23,10:04:17,Ingrid,102,3,5,0,NaN,519,1616,NaN,1085,NaN,NaN,0
2014_13_23,10:04:20,Ingrid,103,1,0,1,1118,541,2449,675,1798,1123,111,0
2014_13_23,10:04:25,Ingrid,104,4,0,1,587,615,2566,1251,1844,593,108,0
2014_13_23,10:04:30,Ingrid,105,4,5,0,NaN,450,1133,NaN,671,NaN,NaN,2
2014_13_23,10:04:33,Ingrid,106,4,5,0,NaN,478,1599,NaN,1107,NaN,NaN,2
2014_13_23,10:04:37,Ingrid,107,2,0,1,1069,523,2499,793,1867,1074,110,0
2014_13_23,10:04:58,Ingrid,112,4,0,1,883,550,2482,932,1821,889,112,0
2014_14_23,10:04:03,Ingrid,113,5,5,0,NaN,507,1632,NaN,1108,NaN,NaN,1
2014_14_23,10:04:16,Ingrid,116,3,1,0,NaN,611,2633,756,NaN,NaN,NaN,0
2014_14_23,10:04:31,Ingrid,118,5,0,1,901,664,2732,1052,1959,907,110,0
2014_14_23,10:04:35,Ingrid,119,3,0,1,636,495,2033,788,1429,641,109,1
2014_14_23,10:04:39,Ingrid,120,4,5,0,NaN,378,1200,NaN,809,NaN,NaN,0
2014_14_23,10:04:43,Ingrid,121,4,0,1,812,244,2066,889,1706,817,117,0
2014_14_23,10:04:56,Ingrid,124,3,0,1,1082,660,2616,756,1843,1087,113,0
2014_15_23,10:04:01,Ingrid,125,4,0,1,681,539,2200,861,1548,687,113,0
2014_15_23,10:04:07,Ingrid,126,3,5,0,NaN,449,1149,NaN,694,NaN,NaN,1
2014_15_23,10:04:20,Ingrid,129,5,1,0,NaN,669,2849,914,NaN,NaN,NaN,0
2014_15_23,10:04:56,Ingrid,137,4,0,1,727,529,2099,720,1453,733,118,0
2014_16_23,10:04:00,Ingrid,138,4,0,1,727,595,2166,721,1454,733,117,2
2014_16_23,10:04:14,Ingrid,141,3,0,1,661,618,2099,698,1365,667,117,0
2014_16_23,10:04:34,Ingrid,146,1,0,1,1039,538,2232,528,1573,1045,122,0
2014_16_23,10:04:38,Ingrid,147,5,0,1,261,287,1466,796,1062,266,118,1
2014_16_23,10:04:41,Ingrid,148,4,0,1,545,519,1883,698,1248,550,117,2
2014_16_23,10:04:45,Ingrid,149,4,0,1,281,496,1583,687,974,287,114,0
2014_16_23,10:04:58,Ingrid,152,4,0,1,163,497,1466,686,855,169,115,1
2014_17_23,10:04:01,Ingrid,153,1,0,1,483,539,1667,528,1017,489,111,0
2014_17_23,10:04:05,Ingrid,154,3,0,1,125,338,1266,678,809,131,120,0
2014_17_23,10:04:18,Ingrid,157,1,0,1,558,432,1683,568,1131,563,121,1
2014_17_23,10:04:21,Ingrid,158,5,0,1,508,701,2066,732,1246,514,120,0
2014_17_23,10:04:25,Ingrid,159,5,5,0,NaN,643,1350,NaN,695,NaN,NaN,3
2014_17_23,10:04:29,Ingrid,160,4,5,0,NaN,1024,1566,NaN,535,NaN,NaN,3
2014_17_23,10:04:54,Ingrid,166,1,0,1,1022,664,2316,519,1547,1028,106,0
2014_17_23,10:04:57,Ingrid,167,3,0,1,632,408,1766,608,1245,637,114,4
2014_18_23,10:04:03,Ingrid,168,4,0,1,375,450,1616,666,1046,380,121,0
2014_18_23,10:04:06,Ingrid,169,4,0,1,282,407,1466,659,947,288,113,0
2014_18_23,10:04:19,Ingrid,172,4,0,1,515,576,1866,657,1177,520,114,1
2014_18_23,10:04:22,Ingrid,173,3,0,1,926,499,2166,617,1548,931,119,0
2014_18_23,10:04:28,Ingrid,174,3,0,1,486,450,1666,617,1108,491,109,2
2014_18_23,10:04:33,Ingrid,175,5,0,1,132,403,1349,696,834,138,113,4
2014_18_23,10:04:36,Ingrid,176,3,0,1,442,284,1466,615,1063,448,120,0
2014_18_23,10:04:41,Ingrid,177,4,0,1,156,401,1316,649,810,161,106,1
2014_18_23,10:04:45,Ingrid,178,3,5,0,NaN,426,1000,NaN,556,NaN,NaN,0
2014_18_23,10:04:59,Ingrid,181,5,0,1,650,431,1883,685,1341,656,112,0
2014_19_23,10:04:04,Ingrid,182,3,0,1,609,425,1766,608,1223,615,119,0
2014_19_23,10:04:53,Ingrid,194,1,0,1,1208,629,2483,521,1734,1213,120,0
2014_19_23,10:04:57,Ingrid,195,3,0,1,549,450,1717,600,1154,554,113,0
2014_20_23,10:04:00,Ingrid,196,4,0,1,249,427,1416,622,877,255,113,1
2014_20_23,10:04:04,Ingrid,197,2,5,0,NaN,380,1299,NaN,904,NaN,NaN,2
2014_20_23,10:04:19,Ingrid,200,4,5,0,NaN,450,1866,NaN,1407,NaN,NaN,0
2014_20_23,10:04:42,Ingrid,207,1,0,1,1114,654,2566,679,1799,1120,114,0
2014_20_23,10:04:46,Ingrid,208,2,0,1,825,446,2132,737,1568,831,119,2
2014_20_23,10:04:52,Ingrid,209,4,5,0,NaN,361,1266,NaN,900,NaN,NaN,0
2014_20_23,10:04:56,Ingrid,210,4,0,1,411,331,1949,1085,1502,417,117,0
2014_21_23,10:04:01,Ingrid,211,4,0,1,131,356,1600,994,1131,137,114,1
2014_21_23,10:04:14,Ingrid,214,1,0,1,671,594,1900,523,1200,677,107,0
2014_21_23,10:04:17,Ingrid,215,3,0,1,558,702,2182,797,1361,564,120,0
2014_21_23,10:04:22,Ingrid,216,3,0,1,472,541,1966,842,1320,478,106,0
2014_21_23,10:04:27,Ingrid,217,5,5,0,NaN,449,1416,NaN,948,NaN,NaN,0
2014_21_23,10:04:31,Ingrid,218,4,0,1,451,543,2082,973,1430,457,110,1
2014_21_23,10:04:36,Ingrid,219,2,0,1,596,453,1816,646,1248,602,116,0
2014_21_23,10:04:41,Ingrid,220,2,0,1,467,383,1716,750,1223,473,111,0
2014_21_23,10:04:46,Ingrid,221,2,5,0,NaN,428,1066,NaN,625,NaN,NaN,0
2014_21_23,10:04:50,Ingrid,222,3,0,1,169,331,1433,818,993,175,109,0
2014_22_23,10:04:03,Ingrid,225,4,0,1,512,553,2100,914,1431,517,117,0
2014_22_23,10:04:07,Ingrid,226,3,0,1,628,588,2182,844,1478,634,117,1
2014_22_23,10:04:24,Ingrid,230,1,0,1,597,620,1966,630,1232,602,115,2
2014_22_23,10:04:28,Ingrid,231,4,1,0,NaN,400,2482,816,NaN,NaN,NaN,0
2014_22_23,10:04:42,Ingrid,233,4,0,1,653,458,2066,841,1499,658,109,1
2014_22_23,10:04:47,Ingrid,234,3,0,1,562,332,1716,701,1269,568,116,0
2014_22_23,10:04:50,Ingrid,235,2,0,1,795,243,1766,607,1407,800,117,0
2014_22_23,10:04:54,Ingrid,236,5,5,0,NaN,433,1400,933,946,NaN,NaN,1
2014_22_23,10:04:58,Ingrid,237,2,0,1,841,447,2066,652,1499,847,121,2
2014_23_23,10:04:03,Ingrid,238,1,0,1,558,332,1583,568,1131,563,121,0
2014_23_23,10:04:07,Ingrid,239,1,0,1,510,447,1649,569,1085,516,118,0
2014_23_23,10:04:12,Ingrid,240,3,5,0,NaN,1368,1850,NaN,464,NaN,NaN,0
2014_23_23,10:04:16,Ingrid,241,3,0,1,667,446,1966,737,1410,673,111,0
2014_23_23,10:04:19,Ingrid,242,5,5,0,NaN,406,1350,860,925,NaN,NaN,0
2014_23_23,10:04:24,Ingrid,243,4,0,1,473,470,1883,813,1292,479,122,0
2014_23_23,10:04:28,Ingrid,244,1,0,1,653,585,1916,564,1223,659,108,0
2014_23_23,10:04:33,Ingrid,245,1,0,1,560,447,1649,519,1085,566,118,0
2014_23_23,10:04:46,Ingrid,248,1,0,1,691,656,1999,527,1223,696,121,0
2014_23_23,10:04:51,Ingrid,249,5,0,1,469,542,1965,840,1315,475,109,0
2014_23_23,10:04:56,Ingrid,250,5,0,1,841,447,2249,836,1683,847,120,0
2014_24_23,10:04:00,Ingrid,251,5,5,0,NaN,402,1100,NaN,693,NaN,NaN,1
2014_24_23,10:04:04,Ingrid,252,4,0,1,702,423,2033,794,1501,707,110,2
2014_24_23,10:04:08,Ingrid,253,5,0,1,282,462,1683,821,1109,288,113,0
2014_24_23,10:04:13,Ingrid,254,3,0,1,534,471,1850,729,1269,540,111,0
2014_24_23,10:04:16,Ingrid,255,3,0,1,848,1451,3132,714,1568,854,114,0
2014_24_23,10:04:49,Ingrid,262,2,1,0,NaN,1103,2999,630,NaN,NaN,NaN,0
2014_25_23,10:04:05,Ingrid,265,5,0,1,904,808,2583,758,1668,910,108,0
2014_25_23,10:04:16,Ingrid,267,5,0,1,969,782,2666,801,1776,975,109,0
2014_25_23,10:04:21,Ingrid,268,3,0,1,801,654,2250,679,1486,807,111,0
2014_25_23,10:04:27,Ingrid,269,1,0,1,527,724,1950,576,1108,532,118,1
2014_25_23,10:04:30,Ingrid,270,2,0,1,355,663,1766,636,997,361,107,1
2014_25_23,10:04:35,Ingrid,271,3,0,1,162,425,1350,642,810,168,116,3
2014_25_23,10:04:50,Ingrid,274,4,1,0,NaN,756,2716,694,NaN,NaN,NaN,0
2014_26_23,10:04:07,Ingrid,278,5,0,1,969,568,2383,732,1707,975,108,0
2014_26_23,10:04:20,Ingrid,281,2,0,1,509,646,1849,570,1085,515,119,0
2014_26_23,10:04:23,Ingrid,282,3,0,1,949,379,2066,621,1575,954,113,0
2014_26_23,10:04:27,Ingrid,283,1,0,1,144,383,1516,867,1016,149,118,2
2014_26_23,10:04:32,Ingrid,284,4,5,0,NaN,494,1799,NaN,1292,NaN,NaN,0
2014_26_23,10:04:42,Ingrid,286,5,5,0,NaN,505,1766,NaN,1248,NaN,NaN,0
2014_26_23,10:04:46,Ingrid,287,5,5,0,NaN,538,1999,NaN,1453,NaN,NaN,0
2014_26_23,10:04:50,Ingrid,288,2,0,1,676,768,2615,1048,1729,681,119,0
2014_26_23,10:04:56,Ingrid,289,4,0,1,109,654,2249,1362,1476,114,120,1
2014_27_23,10:04:01,Ingrid,290,5,5,0,NaN,540,1566,NaN,1017,NaN,NaN,0
2014_27_23,10:04:07,Ingrid,291,4,5,0,NaN,1804,3132,NaN,1315,NaN,NaN,0
2014_27_23,10:04:23,Ingrid,294,4,0,1,688,711,2615,1105,1798,693,107,0
2014_27_23,10:04:27,Ingrid,295,4,5,0,NaN,470,1566,NaN,1085,NaN,NaN,0
2014_27_23,10:04:31,Ingrid,296,3,0,1,385,538,1916,878,1268,390,111,0
2014_27_23,10:04:34,Ingrid,297,4,5,0,NaN,538,1733,NaN,1179,NaN,NaN,0
2014_27_23,10:04:39,Ingrid,298,5,5,0,NaN,494,1850,1339,1346,NaN,NaN,0
2014_27_23,10:04:44,Ingrid,299,5,1,0,NaN,1090,3499,1143,NaN,NaN,NaN,0
2014_27_23,10:04:59,Ingrid,301,2,1,0,NaN,1275,3249,708,NaN,NaN,NaN,0
2014_28_23,10:04:12,Ingrid,303,5,0,1,426,540,2116,1026,1458,432,119,1
2014_28_23,10:04:16,Ingrid,304,5,0,1,529,1274,3049,1126,1661,535,115,0
2014_28_23,10:04:22,Ingrid,305,1,5,0,NaN,424,1150,626,717,NaN,NaN,0
2014_28_23,10:04:27,Ingrid,306,1,0,1,895,424,2016,576,1476,900,117,0
2014_28_23,10:04:30,Ingrid,307,1,0,1,626,561,1832,522,1153,631,119,1
2014_28_23,10:04:35,Ingrid,308,5,0,1,165,448,1783,1052,1223,171,113,2
2014_28_23,10:04:40,Ingrid,309,1,0,1,440,424,1566,575,1020,445,123,3
2014_29_23,10:04:17,Ingrid,317,2,0,1,910,981,2666,652,1568,916,118,0
2014_29_23,10:04:21,Ingrid,318,4,0,1,602,679,2233,837,1445,608,110,2
2014_29_23,10:04:28,Ingrid,320,5,0,1,714,666,2416,917,1637,720,114,1
2014_29_23,10:04:33,Ingrid,321,5,5,0,NaN,883,1849,866,946,NaN,NaN,0
2014_29_23,10:04:38,Ingrid,322,1,0,1,1056,723,2483,577,1638,1061,123,0
2014_29_23,10:04:42,Ingrid,323,5,5,0,NaN,492,1483,907,971,NaN,NaN,0
2014_30_23,10:04:02,Ingrid,327,5,0,1,889,714,2532,819,1713,894,106,0
2014_30_23,10:04:19,Ingrid,331,1,0,1,582,1150,2416,566,1154,588,113,0
2014_30_23,10:04:24,Ingrid,332,5,0,1,477,412,1799,788,1270,482,118,0
2014_30_23,10:04:32,Ingrid,334,5,0,1,527,734,2166,782,1315,533,118,0
2014_30_23,10:04:36,Ingrid,335,5,0,1,684,445,2032,788,1477,689,111,0
2014_30_23,10:04:40,Ingrid,336,2,0,1,656,747,2116,586,1247,661,123,0
2014_30_23,10:04:45,Ingrid,337,5,5,0,NaN,700,1582,832,878,NaN,NaN,0
2014_30_23,10:04:51,Ingrid,338,4,0,1,630,562,2083,771,1407,636,115,0
2014_30_23,10:04:56,Ingrid,339,2,0,1,896,406,2066,644,1545,901,116,0
2014_31_23,10:04:49,Ingrid,351,1,0,1,776,1287,2766,579,1361,782,118,0
2014_31_23,10:04:53,Ingrid,352,4,0,1,224,795,1866,721,951,230,121,0
2014_31_23,10:04:58,Ingrid,353,5,0,1,722,608,2166,725,1453,728,106,0
2014_32_23,10:04:02,Ingrid,354,5,0,1,405,332,1616,768,1178,410,107,0
2014_32_23,10:04:06,Ingrid,355,5,5,0,NaN,586,1450,764,854,NaN,NaN,1
2014_32_23,10:04:22,Ingrid,358,5,0,1,548,751,2133,715,1269,554,114,0
2014_32_23,10:04:30,Ingrid,360,5,0,1,992,458,2282,708,1706,998,119,0
2014_32_23,10:04:35,Ingrid,361,1,0,1,833,608,2082,525,1364,839,111,0
2014_32_23,10:04:39,Ingrid,362,4,0,1,634,565,1966,651,1291,640,111,0
2014_32_23,10:04:42,Ingrid,363,2,0,1,161,493,1349,573,740,167,117,0
2014_32_23,10:04:57,Ingrid,366,5,0,1,719,594,2133,706,1430,724,110,0
2014_33_23,10:04:05,Ingrid,368,2,0,1,614,693,1983,557,1177,620,114,0
2014_33_23,10:04:10,Ingrid,369,5,5,0,NaN,907,1366,NaN,441,NaN,NaN,0
2014_33_23,10:04:15,Ingrid,370,2,1,0,NaN,125,1949,558,NaN,NaN,NaN,0
2014_33_23,10:04:36,Ingrid,374,5,0,1,932,690,2416,676,1614,938,112,0
2014_33_23,10:04:41,Ingrid,375,4,0,1,970,612,2332,637,1613,976,108,0
2014_33_23,10:04:45,Ingrid,376,2,0,1,609,555,1849,561,1176,615,119,0
2014_33_23,10:04:50,Ingrid,377,5,0,1,723,588,2116,678,1407,729,122,1
2014_33_23,10:04:55,Ingrid,378,5,0,1,694,265,1766,684,1384,700,117,2
2014_33_23,10:04:59,Ingrid,379,4,0,1,501,469,1733,647,1154,507,111,0
2014_34_23,10:04:05,Ingrid,380,4,5,0,NaN,577,2049,NaN,1457,NaN,NaN,0
2014_34_23,10:04:09,Ingrid,381,1,5,0,NaN,448,1333,868,878,NaN,NaN,2
2014_34_23,10:04:14,Ingrid,382,3,0,1,898,539,3099,1544,2447,903,114,0
2014_34_23,10:04:20,Ingrid,383,4,5,0,NaN,446,1333,NaN,878,NaN,NaN,0
2014_34_23,10:04:24,Ingrid,384,4,5,0,NaN,516,2116,NaN,1594,NaN,NaN,0
2014_34_23,10:04:38,Ingrid,387,3,0,1,759,728,2782,1171,1936,765,119,0
2014_34_23,10:04:42,Ingrid,388,4,5,0,NaN,406,1566,NaN,1154,NaN,NaN,3
2014_34_23,10:04:47,Ingrid,389,2,0,1,830,584,2266,732,1568,836,115,0
2014_34_23,10:04:51,Ingrid,390,4,5,0,NaN,777,1983,NaN,1201,NaN,NaN,1
2014_34_23,10:04:57,Ingrid,391,5,0,1,471,1688,3616,1345,1822,477,106,0
2014_35_23,10:04:02,Ingrid,392,1,0,1,792,453,1932,563,1361,798,119,2
2014_35_23,10:04:07,Ingrid,393,4,5,0,NaN,638,1750,NaN,1108,NaN,NaN,0
2014_35_23,10:04:11,Ingrid,394,4,0,1,926,700,2849,1099,2031,932,119,0
2014_35_23,10:04:15,Ingrid,395,1,5,0,NaN,607,1266,NaN,648,NaN,NaN,0
2014_35_23,10:04:29,Ingrid,398,4,0,1,743,1125,2949,957,1706,749,119,0
2014_35_23,10:04:35,Ingrid,399,4,5,0,NaN,542,1450,NaN,900,NaN,NaN,1
2014_35_23,10:04:39,Ingrid,400,4,0,1,708,538,2365,994,1708,714,120,1
2014_35_23,10:04:42,Ingrid,401,4,5,0,NaN,382,1233,NaN,832,NaN,NaN,0
2014_35_23,10:04:47,Ingrid,402,4,0,1,555,584,2166,915,1476,561,107,0
2014_35_23,10:04:52,Ingrid,403,1,0,1,623,541,1866,575,1204,629,122,0
2014_35_23,10:04:57,Ingrid,404,4,0,1,326,448,1866,968,1300,332,119,1
2014_36_23,10:04:02,Ingrid,405,4,5,0,NaN,541,1499,NaN,947,NaN,NaN,0
2014_36_23,10:04:06,Ingrid,406,5,5,0,NaN,750,1916,1116,1154,NaN,NaN,0
2014_36_23,10:04:11,Ingrid,407,5,0,1,648,813,2632,1053,1707,654,113,0
2014_36_23,10:04:17,Ingrid,408,1,0,1,781,837,2265,529,1316,787,113,0
2014_36_23,10:04:21,Ingrid,409,4,0,1,135,425,1550,875,1016,141,110,3
2014_36_23,10:04:26,Ingrid,410,4,5,0,NaN,448,1200,NaN,740,NaN,NaN,0
2014_36_23,10:04:30,Ingrid,411,1,0,1,866,538,2149,628,1499,871,113,1
2014_36_23,10:04:39,Ingrid,413,4,0,1,105,828,1950,905,1016,111,106,1
2014_36_23,10:04:44,Ingrid,414,5,5,0,NaN,540,1633,1059,1085,NaN,NaN,3
2014_36_23,10:04:49,Ingrid,415,4,0,1,540,678,2183,838,1384,546,122,0
2014_37_23,10:04:13,Ingrid,420,1,1,0,NaN,920,2766,580,NaN,NaN,NaN,0
2014_37_23,10:04:27,Ingrid,422,1,0,1,1109,526,2282,523,1638,1115,119,0
2014_37_23,10:04:31,Ingrid,423,4,0,1,498,401,1783,765,1269,504,113,1
2014_37_23,10:04:34,Ingrid,424,4,5,0,NaN,1461,2216,NaN,740,NaN,NaN,0
2014_39_23,10:04:01,Ingrid,441,1,0,1,362,402,1400,514,882,368,116,3
2014_39_23,10:04:05,Ingrid,442,4,0,1,695,700,2199,683,1384,701,116,0
2014_39_23,10:04:10,Ingrid,443,4,0,1,536,540,1916,726,1268,542,109,0
2014_39_23,10:04:16,Ingrid,444,1,0,1,749,516,1900,517,1272,755,112,1
2014_39_23,10:04:20,Ingrid,445,4,0,1,436,494,1783,739,1181,442,109,2
2014_39_23,10:04:26,Ingrid,446,4,0,1,119,448,1366,685,810,125,109,3
2014_39_23,10:04:31,Ingrid,447,5,0,1,383,425,1716,791,1180,389,112,0
2014_39_23,10:04:45,Ingrid,450,4,0,1,132,715,1683,718,855,137,114,1
2014_39_23,10:04:49,Ingrid,451,1,0,1,529,493,1716,574,1108,534,116,2
2014_39_23,10:04:53,Ingrid,452,4,0,1,110,496,1400,670,786,116,118,3
2014_39_23,10:04:56,Ingrid,453,4,0,1,329,335,1466,681,1016,335,116,4
2014_40_23,10:04:00,Ingrid,454,5,5,0,NaN,540,1200,NaN,647,NaN,NaN,0
2014_40_23,10:04:05,Ingrid,455,4,0,1,271,433,1533,717,993,276,108,0
2014_40_23,10:04:08,Ingrid,456,4,0,1,383,414,1632,719,1108,389,111,0
2014_40_23,10:04:11,Ingrid,457,4,0,1,454,429,1666,671,1130,459,108,0
2014_40_23,10:04:16,Ingrid,458,4,0,1,411,401,1649,715,1131,416,118,0
2014_40_23,10:04:21,Ingrid,459,5,5,0,NaN,495,1250,NaN,739,NaN,NaN,0
2014_40_23,10:04:25,Ingrid,460,5,0,1,830,630,2299,719,1556,837,114,0
2014_40_23,10:04:29,Ingrid,461,4,0,1,578,471,1832,662,1245,583,117,0
2014_40_23,10:04:33,Ingrid,462,3,0,1,550,528,1816,621,1177,556,112,0
2014_40_23,10:04:47,Ingrid,465,4,0,1,377,477,1633,656,1039,383,118,1
2014_40_23,10:04:52,Ingrid,466,4,0,1,572,448,1800,669,1246,577,106,0
2014_40_23,10:04:56,Ingrid,467,5,0,1,401,80,1299,703,1109,406,111,1
2014_41_23,10:04:00,Ingrid,468,1,5,0,NaN,1414,2349,919,926,NaN,NaN,1
2014_41_23,10:04:05,Ingrid,469,4,5,0,NaN,528,2016,NaN,1476,NaN,NaN,2
2014_41_23,10:04:10,Ingrid,470,1,1,0,NaN,516,2299,517,NaN,NaN,NaN,1
2014_41_23,10:04:28,Ingrid,473,4,5,0,NaN,783,1932,NaN,1131,NaN,NaN,2
2014_41_23,10:04:33,Ingrid,474,1,0,1,843,1557,3199,676,1525,849,118,0
2014_41_23,10:04:38,Ingrid,475,1,0,1,880,436,2049,613,1499,886,115,0
2014_41_23,10:04:41,Ingrid,476,2,5,0,NaN,471,1316,795,832,NaN,NaN,0
2014_42_23,10:04:01,Ingrid,480,4,5,0,NaN,1274,2033,NaN,740,NaN,NaN,0
2014_42_23,10:04:06,Ingrid,481,4,0,1,150,563,1966,1137,1292,155,112,0
2014_42_23,10:04:10,Ingrid,482,3,5,0,NaN,1765,2732,NaN,947,NaN,NaN,0
2014_42_23,10:04:15,Ingrid,483,4,0,1,558,539,2183,961,1525,564,120,1
2014_42_23,10:04:20,Ingrid,484,5,0,1,198,1321,2749,1111,1315,204,113,0
2014_42_23,10:04:26,Ingrid,485,1,0,1,367,493,1549,573,946,373,111,0
2014_42_23,10:04:29,Ingrid,486,4,5,0,NaN,735,1833,1065,1085,NaN,NaN,1
2014_42_23,10:04:42,Ingrid,489,4,0,1,360,717,2149,949,1315,366,118,2
2014_42_23,10:04:46,Ingrid,490,4,0,1,163,637,1816,896,1065,169,115,2
2014_42_23,10:04:49,Ingrid,491,1,0,1,617,493,1849,623,1246,623,111,0
2014_43_23,10:04:03,Ingrid,494,4,0,1,724,542,2300,908,1637,729,122,0
2014_43_23,10:04:07,Ingrid,495,3,0,1,306,524,1783,842,1154,312,106,0
2014_43_23,10:04:11,Ingrid,496,2,0,1,175,539,1516,677,858,181,120,0
2014_43_23,10:04:15,Ingrid,497,2,0,1,354,402,1550,681,1040,359,109,1
2014_43_23,10:04:20,Ingrid,498,2,5,0,NaN,471,1299,728,808,NaN,NaN,2
2014_43_23,10:04:25,Ingrid,499,4,0,1,178,515,1766,951,1135,184,117,0
2014_43_23,10:04:28,Ingrid,500,2,0,1,306,447,1500,636,947,311,106,0
2014_43_23,10:04:33,Ingrid,501,2,0,1,419,516,1732,683,1108,425,109,0
2014_43_23,10:04:37,Ingrid,502,1,0,1,594,573,1866,577,1176,599,118,0
2014_43_23,10:04:41,Ingrid,503,1,0,1,503,538,1782,628,1137,509,108,1
2014_43_23,10:04:47,Ingrid,504,1,0,1,168,430,1233,520,693,173,111,0
2014_43_23,10:04:51,Ingrid,505,3,5,0,NaN,547,1167,NaN,601,NaN,NaN,1
2014_44_23,10:04:27,Ingrid,515,4,0,1,605,799,2266,751,1361,610,107,0
2014_44_23,10:04:31,Ingrid,516,1,0,1,719,562,1916,521,1246,725,108,0
2014_44_23,10:04:35,Ingrid,517,3,0,1,344,492,1683,725,1074,349,118,0
2014_44_23,10:04:38,Ingrid,518,4,5,0,NaN,401,1249,798,834,NaN,NaN,0
2014_44_23,10:04:44,Ingrid,519,4,0,1,735,562,2199,787,1528,741,110,0
2014_44_23,10:04:47,Ingrid,520,2,0,1,863,714,2349,652,1521,869,115,0
2014_44_23,10:04:51,Ingrid,521,1,0,1,561,494,1699,522,1089,567,117,1
2014_44_23,10:04:57,Ingrid,522,4,0,1,152,540,1550,743,901,158,110,2
2014_45_23,10:04:02,Ingrid,523,2,0,1,430,500,1699,649,1085,436,115,0
2014_45_23,10:04:06,Ingrid,524,4,0,1,150,658,1716,791,947,156,112,1
2014_45_23,10:04:20,Ingrid,527,1,0,1,686,589,1966,578,1269,691,109,1
2014_45_23,10:04:23,Ingrid,528,3,0,1,283,407,1466,659,947,288,113,3
2014_45_23,10:04:37,Ingrid,531,2,0,1,660,553,1917,580,1246,666,118,3
2014_45_23,10:04:41,Ingrid,532,1,0,1,744,334,1766,566,1316,750,117,0
2014_45_23,10:04:45,Ingrid,533,4,0,1,117,298,1299,768,890,122,112,0
2014_45_23,10:04:48,Ingrid,534,1,0,1,472,332,1433,517,995,478,106,0
2014_46_23,10:04:07,Ingrid,539,3,0,1,344,840,1949,643,993,350,117,0
2014_46_23,10:04:10,Ingrid,540,2,0,1,546,520,1766,579,1131,552,116,0
2014_47_23,10:04:42,Ingrid,558,4,0,1,291,849,1916,650,946,296,122,0
2014_47_23,10:04:55,Ingrid,561,1,0,1,127,535,1300,515,648,133,118,0
2014_48_23,10:04:00,Ingrid,562,1,0,1,326,493,1466,523,855,332,119,1
2014_48_23,10:04:03,Ingrid,563,1,0,1,229,505,1383,528,763,235,116,2
2014_51_23,10:04:39,Ingrid,607,2,0,1,342,1540,2583,576,924,348,120,0
2014_53_23,10:04:15,Ingrid,627,1,0,1,512,645,1800,522,1039,517,117,1
2014_53_23,10:04:40,Ingrid,633,4,0,1,631,1034,2416,632,1269,637,114,0
2014_54_23,10:04:13,Ingrid,640,1,0,1,298,988,1932,528,832,304,113,1
2014_55_23,10:04:49,Ingrid,660,1,0,1,418,826,1882,523,947,424,110,0
2014_55_23,10:04:58,Ingrid,662,2,0,1,584,1541,2783,542,1131,589,112,0
2014_56_23,10:04:08,Ingrid,664,1,0,1,566,1103,2299,513,1085,572,112,0
2014_01_23,11:04:02,Ingrid,725,2,0,1,540,1794,2999,539,1085,546,121,0
2014_01_23,11:04:12,Ingrid,727,1,0,1,255,1240,2132,526,786,260,107,1
2014_01_23,11:04:27,Ingrid,730,1,0,1,493,712,1850,521,1020,499,118,0
2014_01_23,11:04:37,Ingrid,732,2,5,0,NaN,854,1116,NaN,257,NaN,NaN,0
2014_03_23,11:04:31,Ingrid,754,1,0,1,478,1402,2516,514,998,484,117,0
2014_03_23,11:04:41,Ingrid,756,2,5,0,NaN,1563,2182,536,602,NaN,NaN,1
2014_04_23,11:04:29,Ingrid,765,1,0,1,791,782,2216,518,1315,797,120,0
2014_04_23,11:04:37,Ingrid,767,1,5,0,NaN,793,1383,524,579,NaN,NaN,0
2014_04_23,11:04:41,Ingrid,768,1,0,1,741,1160,2549,523,1269,746,121,0
2014_04_23,11:04:46,Ingrid,769,2,0,1,138,447,1233,536,679,143,108,2
2014_05_23,11:04:04,Ingrid,773,2,0,1,758,818,2232,531,1295,764,120,3
2014_05_23,11:04:08,Ingrid,774,4,0,1,703,473,1849,560,1269,709,108,0
2014_05_23,11:04:13,Ingrid,775,1,0,1,704,1303,2632,512,1223,711,107,0
2014_05_23,11:04:19,Ingrid,776,3,0,1,187,586,1433,547,739,192,108,2
2014_05_23,11:04:23,Ingrid,777,1,0,1,352,1760,2749,522,880,358,109,0
2014_05_23,11:04:33,Ingrid,779,2,0,1,463,506,1616,527,996,469,115,0
2014_05_23,11:04:50,Ingrid,783,1,0,1,399,714,1749,519,924,405,112,0
2014_05_23,11:04:55,Ingrid,784,2,5,0,NaN,171,666,NaN,487,NaN,NaN,0
2014_12_23,11:04:14,Ingrid,861,1,0,1,264,667,1566,516,786,270,114,0
2014_12_23,11:04:23,Ingrid,863,1,0,1,287,666,1582,516,809,293,108,0
2014_12_23,11:04:32,Ingrid,865,1,0,1,193,781,1616,518,717,199,119,0
2014_12_23,11:04:35,Ingrid,866,1,5,0,NaN,1459,2099,523,625,NaN,NaN,0
2014_18_23,11:04:10,Ingrid,933,1,0,1,681,969,2282,514,1200,686,114,0
2014_18_23,11:04:31,Ingrid,938,1,0,1,219,1034,1883,515,740,225,110,0
2014_18_23,11:04:40,Ingrid,940,1,0,1,541,850,2032,516,1063,547,120,0
2014_18_23,11:04:45,Ingrid,941,1,0,1,494,700,1832,516,1015,499,118,1
2014_18_23,11:04:50,Ingrid,942,1,0,1,666,655,1966,528,1199,671,113,2
2014_18_23,11:04:54,Ingrid,943,1,0,1,190,1094,1932,522,717,195,122,3
2014_19_23,11:04:04,Ingrid,945,1,0,1,451,602,1683,514,971,457,110,4
2014_19_23,11:04:20,Ingrid,949,1,1,0,NaN,713,2499,520,NaN,NaN,NaN,0
2014_19_23,11:04:33,Ingrid,951,1,0,1,630,865,2133,518,1154,636,115,0
2014_19_23,11:04:44,Ingrid,954,1,0,1,728,717,2083,516,1250,734,117,0
2014_19_23,11:04:48,Ingrid,955,2,0,1,858,700,2216,533,1397,864,120,1
2014_20_23,11:04:10,Ingrid,960,1,0,1,1087,1162,2882,521,1614,1093,107,0
2014_20_23,11:04:14,Ingrid,961,1,0,1,232,774,1649,526,764,238,112,1
2014_20_23,11:04:19,Ingrid,962,2,0,1,807,757,2216,526,1338,812,121,1
2014_20_23,11:04:25,Ingrid,963,2,0,1,246,816,1716,534,785,251,116,3
2014_20_23,11:04:30,Ingrid,964,1,0,1,451,586,1666,514,971,457,110,3
2014_20_23,11:04:40,Ingrid,966,1,0,1,626,711,1982,522,1153,631,119,0
2014_20_23,11:04:45,Ingrid,967,4,5,0,NaN,838,2965,NaN,2123,NaN,NaN,0
2014_20_23,11:04:56,Ingrid,969,3,5,0,NaN,1333,2433,NaN,1085,NaN,NaN,0
2014_21_23,11:04:18,Ingrid,973,4,0,1,100,881,2399,1301,1407,106,112,0
2014_21_23,11:04:45,Ingrid,979,4,0,1,175,1586,2882,996,1177,181,120,0
2014_21_23,11:04:54,Ingrid,981,4,0,1,482,622,2233,1011,1499,488,112,0
2014_22_23,11:04:03,Ingrid,983,3,0,1,353,1358,2666,841,1200,359,109,0
2014_22_23,11:04:26,Ingrid,988,3,0,1,257,1851,3082,848,1111,263,121,0
2014_22_23,11:04:32,Ingrid,989,4,5,0,NaN,677,1516,NaN,831,NaN,NaN,0
2014_22_23,11:04:36,Ingrid,990,3,0,1,849,699,2449,784,1639,855,112,0
2014_22_23,11:04:41,Ingrid,991,3,0,1,656,653,2182,746,1408,662,122,1
2014_22_23,11:04:44,Ingrid,992,3,5,0,NaN,748,1566,734,809,NaN,NaN,2
2014_22_23,11:04:48,Ingrid,993,5,5,0,NaN,768,1699,NaN,926,NaN,NaN,3
2014_22_23,11:04:53,Ingrid,994,3,0,1,792,1023,2716,777,1574,797,120,2
2014_22_23,11:04:57,Ingrid,995,4,0,1,615,771,2383,879,1499,620,114,2
2014_23_23,11:04:03,Ingrid,996,5,0,1,185,700,2016,1016,1207,191,110,4
2014_23_23,11:04:07,Ingrid,997,5,5,0,NaN,1281,2199,NaN,901,NaN,NaN,0
2014_23_23,11:04:12,Ingrid,998,3,0,1,581,677,2083,706,1293,587,113,0
2014_23_23,11:04:16,Ingrid,999,3,5,0,NaN,682,1366,NaN,671,NaN,NaN,1
2014_35_23,11:04:04,Ingrid,1140,1,0,1,933,1333,2899,516,1454,938,113,0
2014_35_23,11:04:20,Ingrid,1143,5,0,1,423,745,1866,588,1016,428,106,0
2014_35_23,11:04:39,Ingrid,1147,4,0,1,853,782,2316,568,1426,858,109,0
2014_35_23,11:04:44,Ingrid,1148,5,0,1,570,1021,2282,578,1154,576,108,0
2014_36_23,11:04:03,Ingrid,1152,1,5,0,NaN,906,1250,NaN,326,NaN,NaN,1
2014_36_23,11:04:08,Ingrid,1153,3,0,1,873,332,1883,551,1430,879,122,0
2014_36_23,11:04:12,Ingrid,1154,3,0,1,875,701,2249,549,1430,881,119,1
2014_36_23,11:04:16,Ingrid,1155,4,0,1,753,543,1966,556,1315,759,108,0
2014_36_23,11:04:21,Ingrid,1156,4,0,1,210,563,1466,570,786,216,118,1
2014_36_23,11:04:25,Ingrid,1157,4,0,1,100,218,1000,565,671,106,112,2
2014_36_23,11:04:30,Ingrid,1158,4,0,1,569,656,1900,561,1135,574,109,0
2014_36_23,11:04:51,Ingrid,1162,3,0,1,155,1426,2249,557,717,160,107,1
2014_36_23,11:04:58,Ingrid,1164,5,0,1,318,1172,2183,578,903,325,109,0
2014_37_23,11:04:04,Ingrid,1165,5,0,1,557,631,1883,569,1131,562,122,0
2014_37_23,11:04:14,Ingrid,1167,5,0,1,1082,644,2415,572,1660,1088,112,0
2014_37_23,11:04:19,Ingrid,1168,3,0,1,669,608,1932,541,1216,675,109,1
2014_37_23,11:04:23,Ingrid,1169,3,0,1,459,1116,2250,551,1015,464,120,0
2014_37_23,11:04:40,Ingrid,1174,3,0,1,852,567,2083,550,1407,857,110,1
2014_37_23,11:04:50,Ingrid,1176,3,0,1,908,1691,3265,541,1455,914,120,0
2014_37_23,11:04:56,Ingrid,1177,3,0,1,996,1321,2983,545,1547,1002,115,0
2014_38_23,11:04:16,Ingrid,1182,3,0,1,849,47,1566,553,1407,854,113,2
2014_38_23,11:04:43,Ingrid,1188,5,0,1,1177,644,2516,572,1755,1183,117,0
2014_38_23,11:04:48,Ingrid,1189,5,0,1,399,1001,2083,565,969,404,114,0
2014_39_23,11:04:02,Ingrid,1192,5,0,1,500,621,1816,579,1085,506,111,0
2014_39_23,11:04:07,Ingrid,1193,4,0,1,778,1045,2499,554,1338,784,117,1
2014_39_23,11:04:29,Ingrid,1198,4,0,1,912,1034,2632,565,1483,918,116,1
2014_39_23,11:04:33,Ingrid,1199,3,0,1,183,665,1517,552,740,188,112,3
2014_39_23,11:04:37,Ingrid,1200,5,0,1,186,862,1733,571,763,192,109,0
2014_39_23,11:04:51,Ingrid,1203,3,0,1,1248,705,2616,545,1798,1253,114,0
2014_39_23,11:04:55,Ingrid,1204,4,0,1,703,539,1916,560,1269,709,109,0
2014_39_23,11:04:59,Ingrid,1205,2,0,1,397,130,1766,1119,1522,403,115,1
2014_40_23,11:04:03,Ingrid,1206,4,5,0,NaN,518,1250,NaN,717,NaN,NaN,0
2014_40_23,11:04:07,Ingrid,1207,2,0,1,114,861,2083,989,1108,119,115,1
2014_40_23,11:04:12,Ingrid,1208,4,5,0,NaN,516,1516,NaN,993,NaN,NaN,0
2014_40_23,11:04:16,Ingrid,1209,4,5,0,NaN,792,2299,NaN,1499,NaN,NaN,0
2014_40_23,11:04:22,Ingrid,1210,5,5,0,NaN,907,2349,NaN,1430,NaN,NaN,0
2014_40_23,11:04:33,Ingrid,1212,5,0,1,640,850,3182,1566,2212,646,121,0
2014_52_23,11:04:24,Ingrid,1355,5,0,1,954,1747,3398,585,1545,960,107,0
2014_58_23,11:04:16,Ingrid,1426,5,0,1,657,1472,2816,560,1223,663,121,0
2014_58_23,11:04:20,Ingrid,1427,4,0,1,337,691,1700,559,902,343,108,1
2014_58_23,11:04:23,Ingrid,1428,4,5,0,NaN,563,1199,553,624,NaN,NaN,2
2014_58_23,11:04:29,Ingrid,1429,4,0,1,1059,33,1766,550,1614,1064,120,0
2014_58_23,11:04:32,Ingrid,1430,4,0,1,759,249,1683,551,1315,764,120,0
2014_58_23,11:04:36,Ingrid,1431,4,0,1,271,678,1616,555,832,277,107,0
2014_58_23,11:04:52,Ingrid,1435,5,0,1,606,1782,3065,567,1178,611,106,0
2014_58_23,11:04:58,Ingrid,1436,5,0,1,473,540,1700,560,1038,478,123,0
2014_59_23,11:04:02,Ingrid,1437,4,0,1,381,540,1600,560,947,387,114,0
2014_59_23,11:04:05,Ingrid,1438,4,0,1,176,507,1366,559,741,182,119,0
2014_59_23,11:04:10,Ingrid,1439,5,0,1,406,472,1549,561,972,411,106,0
2014_59_23,11:04:15,Ingrid,1440,4,0,1,436,498,1599,551,993,442,109,0
2014_59_23,11:04:20,Ingrid,1441,5,0,1,416,495,1600,572,993,421,113,0
2014_59_23,11:04:25,Ingrid,1442,4,0,1,139,335,1150,548,693,145,123,0
2014_59_23,11:04:41,Ingrid,1447,4,0,1,535,516,1716,550,1091,541,110,0
2014_00_23,12:04:00,Ingrid,1452,4,0,1,687,664,2016,553,1245,692,108,0
2014_00_23,12:04:05,Ingrid,1453,4,0,1,590,540,1816,559,1154,595,122,0
2014_00_23,12:04:10,Ingrid,1454,4,0,1,386,1094,2149,556,947,391,109,0
2014_00_23,12:04:24,Ingrid,1457,5,0,1,222,508,1400,558,786,228,107,0
2014_00_23,12:04:42,Ingrid,1462,3,0,1,746,958,2365,541,1292,751,116,0
2014_01_23,12:04:01,Ingrid,1466,5,0,1,1097,758,2533,558,1661,1103,114,0
2014_01_23,12:04:20,Ingrid,1471,1,0,1,719,445,1800,522,1246,724,109,2
2014_01_23,12:04:23,Ingrid,1472,5,0,1,179,661,1516,555,740,185,116,3
2014_01_23,12:04:27,Ingrid,1473,4,0,1,706,592,1983,558,1270,712,122,4
2014_01_23,12:04:31,Ingrid,1474,4,0,1,165,448,1283,552,723,171,113,5
2014_01_23,12:04:35,Ingrid,1475,2,0,1,114,472,1233,528,648,120,114,5
2014_01_23,12:04:40,Ingrid,1476,3,0,1,277,450,1400,550,832,282,118,5
2014_01_23,12:04:45,Ingrid,1477,5,0,1,190,498,1382,568,764,196,121,0
2014_01_23,12:04:48,Ingrid,1478,5,0,1,172,569,1416,564,742,178,106,0
2014_02_23,12:04:02,Ingrid,1481,5,0,1,516,603,1799,563,1085,522,112,0
2014_02_23,12:04:06,Ingrid,1482,3,0,1,819,379,1849,537,1361,824,110,1
2014_02_23,12:04:09,Ingrid,1483,4,0,1,255,402,1316,548,809,261,106,3
2014_02_23,12:04:13,Ingrid,1484,4,0,1,164,702,1533,548,717,169,115,4
2014_02_23,12:04:17,Ingrid,1485,4,5,0,NaN,448,1033,552,579,NaN,NaN,0
2014_02_23,12:04:36,Ingrid,1489,4,0,1,669,782,2116,551,1226,675,109,0
2014_02_23,12:04:41,Ingrid,1490,4,0,1,402,563,1632,553,961,408,109,2
2014_02_23,12:04:45,Ingrid,1491,5,0,1,408,541,1633,559,972,413,121,3
2014_02_23,12:04:49,Ingrid,1492,4,5,0,NaN,384,983,549,579,NaN,NaN,4
2014_02_23,12:04:53,Ingrid,1493,5,0,1,569,611,1849,555,1131,576,108,0
2014_02_23,12:04:57,Ingrid,1494,1,5,0,NaN,613,1449,819,832,NaN,NaN,1
2014_03_23,12:04:01,Ingrid,1495,5,5,0,NaN,448,1799,NaN,1344,NaN,NaN,2
2014_03_23,12:04:07,Ingrid,1496,2,1,0,NaN,1350,3749,1133,NaN,NaN,NaN,0
2014_06_23,12:04:08,Ingrid,1531,2,0,1,687,1357,2733,576,1269,693,108,0
2014_06_23,12:04:12,Ingrid,1532,5,0,1,276,525,1683,758,1039,281,120,0
2014_06_23,12:04:17,Ingrid,1533,5,5,0,NaN,546,1316,753,762,NaN,NaN,1
2014_06_23,12:04:21,Ingrid,1534,5,0,1,256,495,1616,754,1016,262,106,2
2014_06_23,12:04:24,Ingrid,1535,1,0,1,463,608,1716,525,993,468,116,1
2014_06_23,12:04:27,Ingrid,1536,1,5,0,NaN,617,1016,NaN,394,NaN,NaN,0
2014_06_23,12:04:30,Ingrid,1537,5,0,1,527,793,2249,806,1338,532,119,0
2014_06_23,12:04:34,Ingrid,1538,2,0,1,537,382,1666,634,1177,543,108,0
2014_06_23,12:04:37,Ingrid,1539,5,0,1,217,540,1666,792,1016,224,110,0
2014_06_23,12:04:42,Ingrid,1540,4,5,0,NaN,287,1150,746,849,NaN,NaN,0
2014_06_23,12:04:53,Ingrid,1542,1,0,1,188,681,1550,569,762,193,107,0
2014_06_23,12:04:56,Ingrid,1543,1,5,0,NaN,680,1266,569,579,NaN,NaN,1
2014_07_23,12:04:01,Ingrid,1544,1,1,0,NaN,403,2183,514,NaN,NaN,NaN,1
2014_07_23,12:04:17,Ingrid,1547,5,5,0,NaN,967,1716,716,740,NaN,NaN,0
2014_07_23,12:04:27,Ingrid,1549,5,0,1,313,1013,2166,720,1038,318,116,0
2014_08_23,12:04:35,Ingrid,1565,1,1,0,NaN,537,2333,529,NaN,NaN,NaN,0
2014_08_23,12:04:57,Ingrid,1569,1,0,1,1087,712,2432,521,1613,1092,108,0
2014_09_23,12:04:02,Ingrid,1570,1,0,1,1041,979,2666,521,1567,1046,121,0
2014_09_23,12:04:08,Ingrid,1571,1,0,1,507,706,1866,526,1039,513,121,1
2014_09_23,12:04:12,Ingrid,1572,1,0,1,465,611,1717,522,993,471,113,0
2014_09_23,12:04:16,Ingrid,1573,5,0,1,435,1232,2449,667,1108,441,110,0
2014_09_23,12:04:21,Ingrid,1574,1,0,1,737,403,1766,514,1257,743,107,2
2014_09_23,12:04:26,Ingrid,1575,5,0,1,458,449,1699,667,1131,464,120,2
2014_09_23,12:04:46,Ingrid,1579,5,0,1,170,1292,2232,657,832,175,109,0
2014_09_23,12:04:56,Ingrid,1581,5,0,1,536,875,2183,658,1200,542,109,0
2014_09_23,12:04:59,Ingrid,1582,5,5,0,NaN,574,1299,658,718,NaN,NaN,0
2014_10_23,12:04:03,Ingrid,1583,1,0,1,311,451,1399,515,832,317,117,1
2014_10_23,12:04:07,Ingrid,1584,1,0,1,1070,656,2366,527,1603,1076,108,0
2014_21_23,12:04:30,Ingrid,1722,5,0,1,573,1241,2516,575,1154,579,122,0
2014_21_23,12:04:39,Ingrid,1724,1,0,1,996,413,2049,520,1522,1002,115,0
2014_21_23,12:04:44,Ingrid,1725,4,0,1,592,610,1883,556,1153,597,120,0
2014_21_23,12:04:48,Ingrid,1726,5,5,0,NaN,495,1133,572,627,NaN,NaN,1
2014_21_23,12:04:53,Ingrid,1727,1,0,1,514,1330,2482,519,1039,520,114,0
2014_21_23,12:04:57,Ingrid,1728,2,0,1,202,701,1549,532,739,207,110,3
2014_22_23,12:04:32,Ingrid,1736,1,0,1,243,935,1816,514,762,248,119,3
2014_22_23,12:04:49,Ingrid,1740,5,5,0,NaN,652,1200,NaN,533,NaN,NaN,0
2014_22_23,12:04:54,Ingrid,1741,1,0,1,281,311,1233,522,809,287,113,1
2014_22_23,12:04:57,Ingrid,1742,4,5,0,NaN,501,800,NaN,280,NaN,NaN,2
2014_22_23,12:04:59,Ingrid,1743,1,0,1,638,403,1666,513,1157,644,107,3
2014_23_23,12:04:20,Ingrid,1747,1,0,1,670,825,2133,525,1200,675,108,3
2014_23_23,12:04:55,Ingrid,1756,1,0,1,579,1792,3016,524,1109,585,116,0
2014_24_23,12:04:01,Ingrid,1757,5,0,1,610,588,1883,561,1177,616,118,2
2014_25_23,12:04:12,Ingrid,1772,4,5,0,NaN,919,1216,NaN,280,NaN,NaN,0
2014_25_23,12:04:32,Ingrid,1776,5,5,0,NaN,551,1100,NaN,533,NaN,NaN,0
2014_33_23,12:04:18,Ingrid,1872,1,0,1,1071,528,2233,522,1599,1077,107,0
2014_33_23,12:04:22,Ingrid,1873,1,0,1,190,195,1033,522,717,195,122,0
2014_33_23,12:04:25,Ingrid,1874,1,5,0,NaN,558,1033,NaN,464,NaN,NaN,0
2014_33_23,12:04:41,Ingrid,1878,1,0,1,255,706,1599,527,787,260,107,0
2014_33_23,12:04:44,Ingrid,1879,5,5,0,NaN,540,1033,NaN,487,NaN,NaN,0
2014_33_23,12:04:47,Ingrid,1880,5,0,1,970,403,2033,547,1522,975,108,0
2014_33_23,12:04:52,Ingrid,1881,5,0,1,548,494,1716,555,1109,554,113,0
2014_34_23,12:04:19,Ingrid,1890,5,0,1,1205,609,2466,541,1752,1211,106,0
2014_34_23,12:04:23,Ingrid,1891,4,0,1,838,403,1899,547,1390,843,107,1
2014_34_23,12:04:33,Ingrid,1893,1,0,1,531,874,2049,525,1062,537,114,1
2014_34_23,12:04:36,Ingrid,1894,1,0,1,767,796,2199,520,1292,772,112,1
2014_34_23,12:04:40,Ingrid,1895,5,5,0,NaN,705,1732,NaN,1017,NaN,NaN,0
2014_34_23,12:04:45,Ingrid,1896,5,5,0,NaN,497,1966,NaN,1454,NaN,NaN,1
2014_34_23,12:04:49,Ingrid,1897,4,0,1,506,588,3132,1911,2423,512,122,0
2014_35_23,12:04:08,Ingrid,1901,3,0,1,557,505,2216,1028,1591,563,121,1
2014_35_23,12:04:17,Ingrid,1903,1,0,1,1042,666,2399,566,1614,1048,120,1
2014_35_23,12:04:31,Ingrid,1906,5,5,0,NaN,664,1983,NaN,1314,NaN,NaN,3
2014_35_23,12:04:36,Ingrid,1907,3,0,1,766,449,2266,934,1706,772,112,3
2014_35_23,12:04:40,Ingrid,1908,3,5,0,NaN,610,1566,NaN,947,NaN,NaN,0
2014_36_23,12:04:25,Ingrid,1920,4,0,1,1046,1068,3049,815,1867,1052,115,0
2014_36_23,12:04:29,Ingrid,1921,4,0,1,565,824,2366,859,1430,571,113,0
2014_36_23,12:04:33,Ingrid,1922,2,0,1,1173,746,2666,620,1799,1179,122,0
2014_41_23,12:04:23,Ingrid,1979,5,0,1,1130,851,2749,649,1785,1136,114,0
2014_41_23,12:04:27,Ingrid,1980,5,0,1,682,16,1466,650,1338,688,113,0
2014_41_23,12:04:32,Ingrid,1981,4,0,1,186,499,1417,618,809,191,109,1
2014_41_23,12:04:36,Ingrid,1982,5,0,1,328,430,1516,636,969,333,118,2
2014_42_23,12:04:00,Ingrid,1988,5,0,1,1149,956,2865,643,1798,1155,112,0
2014_42_23,12:04:04,Ingrid,1989,4,0,1,614,451,1800,616,1235,619,115,3
2014_42_23,12:04:08,Ingrid,1990,5,0,1,494,518,1766,632,1131,499,118,0
2014_42_23,12:04:12,Ingrid,1991,4,0,1,411,383,1516,600,1016,416,118,0
2014_42_23,12:04:44,Ingrid,2001,3,0,1,1058,831,2583,569,1633,1064,119,0
2014_43_23,12:04:10,Ingrid,2009,5,0,1,1089,972,2799,611,1706,1095,122,0
2014_43_23,12:04:14,Ingrid,2010,1,0,1,688,587,1916,529,1223,694,106,1
2014_43_23,12:04:28,Ingrid,2013,5,0,1,835,711,2282,622,1462,840,110,0
2014_43_23,12:04:34,Ingrid,2014,3,0,1,740,381,1816,569,1314,745,122,0
2014_43_23,12:04:47,Ingrid,2017,4,0,1,368,636,1716,597,970,373,111,0
2014_43_23,12:04:51,Ingrid,2018,4,0,1,634,449,1782,583,1223,640,111,0
2014_43_23,12:04:56,Ingrid,2019,5,0,1,670,483,1882,616,1292,676,108,0
2014_44_23,12:04:01,Ingrid,2020,5,0,1,241,591,1566,609,855,246,121,0
2014_44_23,12:04:06,Ingrid,2021,5,0,1,161,547,1449,619,786,167,117,0
2014_44_23,12:04:12,Ingrid,2022,4,0,1,236,476,1416,590,832,242,109,0
2014_44_23,12:04:17,Ingrid,2023,4,5,0,NaN,453,1133,596,671,NaN,NaN,0
2014_44_23,12:04:22,Ingrid,2024,4,0,1,610,499,1816,584,1199,615,119,0
2014_44_23,12:04:25,Ingrid,2025,5,0,1,1012,380,2132,620,1637,1017,116,0
2014_44_23,12:04:29,Ingrid,2026,4,0,1,869,499,2066,584,1458,874,110,0
2014_44_23,12:04:49,Ingrid,2032,5,0,1,487,551,1766,615,1108,493,108,0
2014_44_23,12:04:54,Ingrid,2033,4,0,1,139,404,1250,596,740,144,107,0
2014_44_23,12:04:56,Ingrid,2034,5,0,1,495,540,1766,609,1110,501,117,0
2014_45_23,12:04:15,Ingrid,2039,1,0,1,557,411,1616,522,1085,563,121,0
2014_45_23,12:04:19,Ingrid,2040,5,0,1,778,499,1999,601,1384,783,117,0
2014_45_23,12:04:24,Ingrid,2041,1,0,1,654,499,1782,517,1177,660,107,0
2014_45_23,12:04:28,Ingrid,2042,5,0,1,188,435,1350,615,808,193,107,1
2014_45_23,12:04:33,Ingrid,2043,5,0,1,1042,637,2416,612,1660,1048,120,0
2014_45_23,12:04:38,Ingrid,2044,5,5,0,NaN,483,1167,600,670,NaN,NaN,0
2014_46_23,12:04:17,Ingrid,2055,5,0,1,759,637,2116,596,1361,765,119,0
2014_46_23,12:04:52,Ingrid,2064,1,0,1,582,712,1932,521,1108,587,113,0
2014_46_23,12:04:56,Ingrid,2065,5,1,0,NaN,478,2332,588,NaN,NaN,NaN,0
2014_47_23,12:04:08,Ingrid,2067,5,0,1,779,401,1900,599,1384,785,115,0
2014_47_23,12:04:12,Ingrid,2068,5,5,0,NaN,659,1499,NaN,832,NaN,NaN,0
2014_47_23,12:04:16,Ingrid,2069,5,5,0,NaN,895,2216,NaN,1315,NaN,NaN,0
2014_47_23,12:04:21,Ingrid,2070,3,5,0,NaN,520,1616,NaN,1085,NaN,NaN,0
2014_47_23,12:04:26,Ingrid,2071,5,5,0,NaN,404,2499,2028,2077,NaN,NaN,0
2014_47_23,12:04:31,Ingrid,2072,3,0,1,383,429,2200,1271,1660,389,112,0
2014_47_23,12:04:34,Ingrid,2073,5,5,0,NaN,587,1683,NaN,1084,NaN,NaN,0
2014_47_23,12:04:38,Ingrid,2074,5,5,0,NaN,750,2149,NaN,1384,NaN,NaN,0
2014_47_23,12:04:58,Ingrid,2078,4,0,1,950,1532,3648,1050,2006,956,111,0
2014_48_23,12:04:04,Ingrid,2079,3,0,1,555,430,2083,986,1547,561,107,0
2014_48_23,12:04:29,Ingrid,2084,5,0,1,640,615,2466,1084,1730,646,122,0
2014_48_23,12:04:33,Ingrid,2085,3,0,1,480,430,1882,853,1338,485,115,0
2014_48_23,12:04:36,Ingrid,2086,4,5,0,NaN,470,1333,NaN,855,NaN,NaN,0
2014_48_23,12:04:41,Ingrid,2087,3,0,1,620,106,1666,827,1453,626,108,0
2014_48_23,12:04:45,Ingrid,2088,5,0,1,602,222,2082,1144,1752,608,109,0
2014_48_23,12:04:49,Ingrid,2089,5,5,0,NaN,457,1616,1142,1154,NaN,NaN,0
2014_48_23,12:04:54,Ingrid,2090,5,0,1,572,480,2182,1019,1596,577,107,0
2014_48_23,12:04:58,Ingrid,2091,3,0,1,601,1194,2733,822,1429,607,111,0
2014_49_23,12:04:02,Ingrid,2092,2,0,1,575,390,1733,643,1223,580,121,0
2014_49_23,12:04:07,Ingrid,2093,1,0,1,429,413,1533,570,1005,435,116,0
2014_49_23,12:04:11,Ingrid,2094,5,5,0,NaN,450,1366,NaN,903,NaN,NaN,0
2014_49_23,12:04:14,Ingrid,2095,4,0,1,499,342,1933,974,1479,505,112,0
2014_49_23,12:04:44,Ingrid,2101,5,0,1,629,805,2466,911,1545,634,116,0
2014_49_23,12:04:48,Ingrid,2102,4,0,1,136,528,1583,805,947,142,109,0
2014_49_23,12:04:53,Ingrid,2103,5,0,1,115,619,1816,964,1085,121,113,0
2014_49_23,12:04:58,Ingrid,2104,5,5,0,NaN,458,1333,NaN,855,NaN,NaN,0
2014_50_23,12:04:01,Ingrid,2105,5,0,1,268,550,1883,950,1223,273,111,0
2014_50_23,12:04:05,Ingrid,2106,4,0,1,599,388,1899,795,1400,605,112,0
2014_50_23,12:04:09,Ingrid,2107,4,0,1,644,480,2049,802,1452,650,118,0
2014_50_23,12:04:14,Ingrid,2108,5,0,1,729,596,2333,887,1622,735,116,0
2014_50_23,12:04:19,Ingrid,2109,5,0,1,460,621,2100,896,1361,465,119,0
2014_50_23,12:04:39,Ingrid,2114,5,0,1,743,608,2316,842,1591,749,118,0
2014_50_23,12:04:42,Ingrid,2115,5,0,1,776,365,2166,902,1683,781,119,0
2014_50_23,12:04:48,Ingrid,2116,3,0,1,786,320,1950,730,1522,792,109,0
2014_50_23,12:04:53,Ingrid,2117,4,0,1,250,390,1516,760,1015,255,112,0
2014_50_23,12:04:58,Ingrid,2118,1,0,1,878,827,2350,523,1406,883,118,0
2014_51_23,12:04:04,Ingrid,2119,5,0,1,876,781,2616,835,1717,882,119,0
2014_51_23,12:04:10,Ingrid,2120,1,0,1,534,505,1683,528,1068,540,111,0
2014_51_23,12:04:28,Ingrid,2125,5,0,1,146,1220,2350,863,1015,152,115,0
2014_51_23,12:04:33,Ingrid,2126,5,0,1,175,458,1616,858,1039,181,120,0
2014_51_23,12:04:36,Ingrid,2127,5,5,0,NaN,412,1133,NaN,716,NaN,NaN,0
2014_51_23,12:04:41,Ingrid,2128,5,0,1,1234,457,2599,793,2032,1239,111,0
2014_51_23,12:04:45,Ingrid,2129,5,0,1,166,1739,2866,844,1016,172,112,0
2014_51_23,12:04:50,Ingrid,2130,5,0,1,450,572,1932,794,1249,455,112,1
2014_52_23,12:04:35,Ingrid,2142,5,1,0,NaN,963,2966,737,NaN,NaN,NaN,0
2014_53_23,12:04:06,Ingrid,2148,5,1,0,NaN,660,2633,706,NaN,NaN,NaN,0
2014_54_23,12:04:34,Ingrid,2164,4,0,1,523,1171,2449,628,1157,529,122,0
2014_54_23,12:04:44,Ingrid,2166,5,0,1,1063,505,2349,661,1730,1069,115,0
2014_54_23,12:04:49,Ingrid,2167,3,0,1,741,575,2033,591,1337,746,122,0
2014_54_23,12:04:53,Ingrid,2168,5,0,1,617,480,1883,670,1293,623,111,0
2014_54_23,12:04:58,Ingrid,2169,5,0,1,486,504,1766,663,1155,492,108,0
2014_55_23,12:04:02,Ingrid,2170,5,0,1,224,496,1517,671,900,229,121,0
2014_55_23,12:04:07,Ingrid,2171,5,5,0,NaN,461,1183,656,716,NaN,NaN,0
2014_55_23,12:04:10,Ingrid,2172,5,0,1,482,250,1516,667,1155,488,112,0
2014_55_23,12:04:13,Ingrid,2173,5,0,1,860,408,2049,658,1524,866,118,0
2014_55_23,12:04:18,Ingrid,2174,4,5,0,NaN,549,1582,NaN,1015,NaN,NaN,0
2014_55_23,12:04:27,Ingrid,2176,2,5,0,NaN,575,1900,1225,1315,NaN,NaN,0
2014_55_23,12:04:31,Ingrid,2177,2,1,0,NaN,505,2816,1045,NaN,NaN,NaN,0
2014_56_23,12:04:33,Ingrid,2189,2,0,1,718,1081,2666,752,1476,724,110,0
2014_56_23,12:04:43,Ingrid,2191,5,0,1,716,1267,3199,1099,1821,722,112,0
2014_56_23,12:04:49,Ingrid,2192,4,0,1,939,572,2516,878,1822,944,123,0
2014_56_23,12:04:53,Ingrid,2193,4,0,1,699,663,2366,886,1591,705,112,0
2014_56_23,12:04:58,Ingrid,2194,2,0,1,338,609,1800,741,1085,344,106,0
2014_57_23,12:04:11,Ingrid,2197,3,0,1,628,1374,2966,842,1476,634,117,0
2014_57_23,12:04:15,Ingrid,2198,5,0,1,312,597,2032,1002,1320,318,116,0
2014_57_23,12:04:19,Ingrid,2199,4,5,0,NaN,641,1500,NaN,854,NaN,NaN,0
2014_57_23,12:04:22,Ingrid,2200,5,0,1,737,526,2316,940,1683,743,107,0
2014_57_23,12:04:27,Ingrid,2201,5,5,0,NaN,549,1516,NaN,947,NaN,NaN,0
2014_57_23,12:04:32,Ingrid,2202,5,0,1,526,1469,3132,1013,1545,532,119,0
2014_57_23,12:04:38,Ingrid,2203,5,0,1,416,550,1999,916,1338,422,112,1
2014_57_23,12:04:43,Ingrid,2204,5,0,1,272,481,1833,969,1246,277,107,0
2014_57_23,12:04:48,Ingrid,2205,2,0,1,243,458,1499,675,924,249,118,0
2014_57_23,12:04:52,Ingrid,2206,4,0,1,532,526,1999,824,1362,538,112,0
2014_58_23,12:04:07,Ingrid,2209,5,0,1,511,590,2116,893,1410,517,117,0
2014_58_23,12:04:12,Ingrid,2210,5,0,1,156,553,1783,946,1108,162,123,0
2014_58_23,12:04:16,Ingrid,2211,5,0,1,538,688,2283,945,1488,543,108,0
2014_58_23,12:04:20,Ingrid,2212,5,5,0,NaN,458,1432,891,970,NaN,NaN,1
2014_58_23,12:04:25,Ingrid,2213,1,0,1,828,527,2050,573,1407,834,116,0
2014_58_23,12:04:28,Ingrid,2214,2,0,1,1136,543,2449,657,1798,1141,109,0
2014_58_23,12:04:32,Ingrid,2215,5,5,0,NaN,796,1732,886,924,NaN,NaN,0
2014_58_23,12:04:46,Ingrid,2218,5,1,0,NaN,1190,3348,892,NaN,NaN,NaN,0
2014_59_23,12:04:03,Ingrid,2222,3,1,0,NaN,679,2615,670,NaN,NaN,NaN,0
2014_59_23,12:04:32,Ingrid,2229,4,0,1,1220,944,3033,756,1982,1226,107,0
2014_59_23,12:04:36,Ingrid,2230,5,0,1,851,742,2466,758,1614,856,111,0
2014_59_23,12:04:41,Ingrid,2231,3,0,1,699,483,1932,633,1337,704,113,0
2014_59_23,12:04:46,Ingrid,2232,5,0,1,602,528,2000,755,1363,608,110,0
2014_59_23,12:04:51,Ingrid,2233,5,0,1,116,482,1517,801,923,122,113,0
2014_59_23,12:04:55,Ingrid,2234,4,0,1,739,503,2050,697,1441,744,107,0
2014_00_23,13:04:01,Ingrid,2235,5,0,1,430,207,1566,809,1245,436,115,0
2014_00_23,13:04:05,Ingrid,2236,3,0,1,431,484,1682,649,1085,436,114,0
2014_00_23,13:04:10,Ingrid,2237,5,0,1,501,505,1883,761,1268,507,111,0
2014_00_23,13:04:15,Ingrid,2238,2,0,1,588,481,1766,585,1179,594,107,0
2014_00_23,13:04:36,Ingrid,2243,3,0,1,707,409,1916,674,1387,713,121,0
2014_00_23,13:04:41,Ingrid,2244,2,0,1,660,435,1800,582,1248,666,117,0
2014_00_23,13:04:44,Ingrid,2245,2,0,1,597,458,1750,576,1178,602,115,0
2014_01_23,13:04:49,Ingrid,2258,2,0,1,534,1931,3149,568,1108,540,111,0
2014_02_23,13:04:18,Ingrid,2264,5,0,1,801,322,1916,677,1483,806,112,1
2014_02_23,13:04:21,Ingrid,2265,5,1,0,NaN,1021,2965,678,NaN,NaN,NaN,0
2014_03_23,13:04:16,Ingrid,2278,5,0,1,994,688,2450,645,1644,999,118,1
2014_03_23,13:04:21,Ingrid,2279,4,0,1,624,851,2216,615,1245,630,121,0
2014_03_23,13:04:36,Ingrid,2282,2,1,0,NaN,528,2349,555,NaN,NaN,NaN,0
2014_04_23,13:04:03,Ingrid,2287,4,0,1,613,528,1866,605,1224,619,115,0
